# 0          References for Cross Section of N2        Total   
# Lambda = 9.9-247.2 A                                                            
#    Huffman, R. E. (1969)                                                        
#    Can. J. Chem. 47, 1823                                                       
# Lambda = 303.8-1037.6 A                                                         
#    Samson, J. A. R., Cairns, R. B. (1964)                                       
#    J. Geophys. Res. 69, 4583                                                    
# Lambda = 600.-978. A                                                            
#    Cook, G. R., Metzger, P. H. (1964)                                           
#    J. Chem. Phys. 41, 321                                                       
# Lambda = 798.-1000. A                                                           
#    Huffman, R. E., Tanaka, Y., Larrabee, J. C. (1963)                           
#    J. Chem. Phys. 39, 910                                                       
# Lambda = 796. A                                                                 
#    Lofthus, A., Krupenie, P. H. (1977)                                          
#    J. Phys. Chem. Ref. Data 6, 113                                              
#    (ionization threshold)                                                       
# Lambda = 1270.4 A                                                               
#    Huber, K.-P., Herzberg, G. (1979)                                            
#    Molecular Spectra and Molecular Structure, Vol. 4, Van Nostrand Reinhold, New
#    (dissociation threshold)                                                     
# Lambda = 972.5 A                                                                
#    Clark, K. C. (1952)                                                          
#    Phys. Rev. 87, 271                                                           
#    sigma = 1.45E-16                                                             
# Lambda = 972.5 A                                                                
#    Watanabe, K., Marmo, F. F. (1956)                                            
#    J. Chem. Phys. 25, 965                                                       
#    sigma = 1.12E-17                                                             
# Lambda = 972.5 A                                                                
#    Itamoto, F. K., Jr., Mcallister, H. C. (1961)                                
#    Contribution Nr. 29, Hawaii Institute of Geophysics, U. Hawaii               
#    sigma = 3.72E-16                                                             
# Lambda = 972.5 A                                                                
#    Cook, G. R., Metzger (1964)                                                  
#    J. Chem. Phys. 41, 321                                                       
#    sigma = 1.94E-16                                                             
# Lambda = 972.5 A                                                                
#    Huffman, R. E., Tanaka, Y., Larrabee, J. C. (1963)                           
#    J. Chem. Phys. 39, 910                                                       
#    sigma = 3.02E-16                                                             
# Lambda = 972.5 A                                                                
#    Samson, J. A. R., Cairns, R. B. (1964)                                       
#    J. Geophys. Res. 69, 4583                                                    
#    sigma = 3.59E-16                                                             
# Lambda = 972.5 A                                                                
#    Guertler, P., Saile, V., Koch, E. E. (1977)                                  
#    Chem. Phys. Lett. 48, 245                                                    
#    sigma = 3.57E-16                                                             
# Lambda = 972.5 A                                                                
#    Huffman, R. E. (1969)                                                        
#    Can. J. Chem. 47, 1823                                                       
#    sigma = 3.70E-16                                                             
# Lambda = 972.5 A                                                                
#    Geiger, J., Schroeder, B. (1969)                                             
#    J. Chem. Phys. 50, 7                                                         
#    sigma = 1.51E-16                                                             
# Lambda = 972.5 A                                                                
#    Guertler, P., Saile, V., Koch, E. E. (1977)                                  
#    Chem. Phys. Lett. 48, 245                                                    
#    (X singlet sigma g+ to b singlet pi u, v' = 3)                               
# Lambda = 972.5 A                                                                
#    Lofthus, A., Krupenie, P. H. (1977)                                          
#    J. Chem. Phys. Ref. Data 6, 130                                              
#    (line predissociates)                                                        
#                                                                                 
# 0          References for Cross Section of N2        N/N     
# Lambda = 522.2-790.2 A                                                          
#    Huffman, R. E. (1969)                                                        
#    Can. J. Chem. 47, 1823                                                       
#    (branching ratio for dissociation and ionization)                            
# Lambda = 303.8-790.1 A                                                          
#    Samson, J. A. R., Cairns, R. B. (1964)                                       
#    J. Geophys. Res. 69, 4583                                                    
#    (branching ratio for dissociation and ionization)                            
# Lambda = 600.-795. A                                                            
#    Cook, G. R., Metzger (1964)                                                  
#    J. Chem. Phys. 41, 321                                                       
#    (branching ratio for dissociation and ionization)                            
#                                                                                 
# 0          References for Cross Section of N2        N+N     
# Lambda = 304.-510.4 A                                                           
#    Kronebusch, P. L., Berkowitz, J. (1976)                                      
#    Int. J. Mass Spectr. Ion Phys. 22, 283                                       
#    (branching ratio for ionization and dissociative ionization)                 
#                                                                                 
# 0 Branching ratio for N2       Total        3 branches
#  Lambda  N2+     
    1.0  4.00E-23
    9.9  2.16E-20
   13.4  4.62E-20
   29.0  7.60E-19
   30.0  3.81E-20
   44.6  1.02E-19
   68.0  2.71E-19
  100.0  5.54E-19
  150.0  1.75E-18
  209.3  5.32E-18
  247.2  8.59E-18
  303.8  1.16E-17
  348.0  1.55E-17
  395.0  1.81E-17
  430.0  2.06E-17
  435.0  2.33E-17
  498.0  2.42E-17
  507.5  2.43E-17
  508.2  2.23E-17
  510.4  2.30E-17
  519.6  2.53E-17
  522.2  2.28E-17
  525.8  2.57E-17
  537.0  2.43E-17
  553.3  2.39E-17
  554.1  2.39E-17
  554.5  2.28E-17
  555.3  2.37E-17
  584.3  2.30E-17
  597.8  2.27E-17
  599.6  2.23E-17
  600.0  2.62E-17
  608.4  2.33E-17
  609.8  2.59E-17
  610.8  2.31E-17
  617.0  2.32E-17
  620.0  2.83E-17
  624.6  2.33E-17
  625.1  2.32E-17
  625.8  2.35E-17
  629.7  2.35E-17
  630.0  2.83E-17
  640.0  2.74E-17
  650.0  2.63E-17
  660.0  2.39E-17
  670.0  1.81E-17
  671.4  1.93E-17
  674.1  1.83E-17
  675.1  2.03E-17
  679.7  1.75E-17
  681.9  2.38E-17
  685.0  2.32E-17
  685.7  2.39E-17
  686.3  2.30E-17
  690.9  1.75E-17
  694.9  2.98E-17
  700.0  1.82E-17
  710.0  1.91E-17
  715.3  1.73E-17
  721.3  1.92E-17
  723.4  4.09E-17
  726.0  1.94E-17
  729.5  2.10E-17
  733.0  1.88E-17
  734.8  2.06E-17
  735.9  1.86E-17
  736.8  2.12E-17
  737.4  1.64E-17
  737.8  2.08E-17
  738.4  1.67E-17
  739.7  1.81E-17
  740.5  1.30E-17
  741.4  1.53E-17
  742.6  1.23E-17
  743.7  2.53E-17
  744.7  1.49E-17
  745.5  2.25E-17
  746.5  1.19E-17
  747.0  1.38E-17
  747.6  2.01E-17
  748.4  1.75E-17
  749.3  1.34E-17
  749.6  1.60E-17
  750.8  1.00E-17
  752.0  1.16E-17
  752.5  1.30E-17
  752.9  1.16E-17
  754.3  3.49E-17
  756.5  1.04E-17
  757.3  1.64E-17
  757.7  1.30E-17
  758.5  2.24E-17
  758.7  1.79E-17
  759.4  9.98E-18
  759.5  1.08E-17
  760.3  1.13E-17
  761.1  2.21E-17
  761.5  1.82E-17
  762.0  1.28E-17
  762.7  7.60E-18
  763.3  2.18E-17
  763.6  2.31E-17
  764.4  9.32E-18
  764.5  1.45E-17
  765.0  3.50E-17
  765.1  6.58E-17
  767.0  1.00E-17
  768.5  1.74E-17
  770.5  7.91E-18
  771.5  2.79E-17
  774.0  7.54E-18
  774.5  1.36E-17
  778.5  1.30E-17
  779.9  8.32E-18
  780.0  7.55E-18
  781.0  3.61E-17
  782.5  9.48E-18
  783.5  3.87E-17
  785.2  8.76E-18
  786.2  1.66E-17
  787.7  7.48E-18
  788.0  5.22E-18
  789.5  1.45E-17
  790.2  1.03E-17
  790.5  1.20E-17
  792.0  3.72E-17
  793.5  4.24E-18
  795.0  5.60E-18
  798.0  0.00E+00
  801.0  0.00E+00
  801.5  0.00E+00
  802.2  0.00E+00
  802.3  0.00E+00
  803.7  0.00E+00
  804.0  0.00E+00
  804.5  0.00E+00
  805.0  0.00E+00
  805.8  0.00E+00
  806.0  0.00E+00
  806.3  0.00E+00
  806.5  0.00E+00
  806.6  0.00E+00
  808.0  0.00E+00
  808.8  0.00E+00
  809.0  0.00E+00
  810.0  0.00E+00
  810.5  0.00E+00
  811.5  0.00E+00
  812.5  0.00E+00
  813.5  0.00E+00
  813.7  0.00E+00
  815.0  0.00E+00
  816.0  0.00E+00
  817.5  0.00E+00
  818.6  0.00E+00
  819.0  0.00E+00
  820.1  0.00E+00
  820.3  0.00E+00
  821.0  0.00E+00
  821.2  0.00E+00
  822.5  0.00E+00
  822.6  0.00E+00
  823.3  0.00E+00
  824.5  0.00E+00
  824.9  0.00E+00
  825.2  0.00E+00
  825.7  0.00E+00
  826.0  0.00E+00
  826.4  0.00E+00
  828.0  0.00E+00
  828.5  0.00E+00
  828.6  0.00E+00
  829.3  0.00E+00
  831.5  0.00E+00
  832.0  0.00E+00
  833.0  0.00E+00
  833.5  0.00E+00
  834.1  0.00E+00
  834.5  0.00E+00
  835.0  0.00E+00
  835.1  0.00E+00
  836.5  0.00E+00
  837.4  0.00E+00
  837.5  0.00E+00
  840.0  0.00E+00
  840.8  0.00E+00
  840.9  0.00E+00
  841.5  0.00E+00
  842.0  0.00E+00
  842.2  0.00E+00
  842.9  0.00E+00
  843.5  0.00E+00
  844.1  0.00E+00
  844.2  0.00E+00
  846.2  0.00E+00
  846.9  0.00E+00
  847.0  0.00E+00
  848.2  0.00E+00
  849.7  0.00E+00
  850.0  0.00E+00
  850.1  0.00E+00
  852.5  0.00E+00
  852.8  0.00E+00
  853.5  0.00E+00
  853.7  0.00E+00
  855.0  0.00E+00
  856.2  0.00E+00
  856.3  0.00E+00
  856.7  0.00E+00
  857.1  0.00E+00
  857.2  0.00E+00
  859.0  0.00E+00
  859.7  0.00E+00
  859.8  0.00E+00
  860.0  0.00E+00
  860.8  0.00E+00
  861.3  0.00E+00
  862.0  0.00E+00
  862.5  0.00E+00
  863.3  0.00E+00
  863.5  0.00E+00
  864.2  0.00E+00
  865.0  0.00E+00
  865.4  0.00E+00
  866.1  0.00E+00
  866.5  0.00E+00
  866.8  0.00E+00
  867.0  0.00E+00
  868.1  0.00E+00
  870.0  0.00E+00
  870.9  0.00E+00
  871.5  0.00E+00
  871.7  0.00E+00
  873.2  0.00E+00
  874.2  0.00E+00
  875.0  0.00E+00
  875.5  0.00E+00
  876.2  0.00E+00
  876.5  0.00E+00
  877.4  0.00E+00
  878.3  0.00E+00
  879.0  0.00E+00
  879.2  0.00E+00
  879.6  0.00E+00
  880.2  0.00E+00
  881.0  0.00E+00
  881.1  0.00E+00
  882.0  0.00E+00
  882.6  0.00E+00
  882.7  0.00E+00
  883.9  0.00E+00
  885.0  0.00E+00
  885.8  0.00E+00
  886.0  0.00E+00
  886.3  0.00E+00
  886.4  0.00E+00
  886.9  0.00E+00
  887.0  0.00E+00
  888.3  0.00E+00
  888.9  0.00E+00
  889.2  0.00E+00
  890.5  0.00E+00
  891.1  0.00E+00
  892.2  0.00E+00
  893.0  0.00E+00
  893.2  0.00E+00
  894.0  0.00E+00
  895.5  0.00E+00
  896.2  0.00E+00
  897.2  0.00E+00
  898.3  0.00E+00
  899.0  0.00E+00
  899.3  0.00E+00
  899.8  0.00E+00
  900.5  0.00E+00
  900.8  0.00E+00
  901.2  0.00E+00
  901.3  0.00E+00
  902.3  0.00E+00
  902.5  0.00E+00
  903.0  0.00E+00
  903.6  0.00E+00
  904.0  0.00E+00
  904.7  0.00E+00
  905.0  0.00E+00
  907.0  0.00E+00
  907.6  0.00E+00
  908.0  0.00E+00
  909.7  0.00E+00
  910.0  0.00E+00
  910.6  0.00E+00
  910.8  0.00E+00
  911.8  0.00E+00
  912.0  0.00E+00
  912.6  0.00E+00
  912.7  0.00E+00
  916.0  0.00E+00
  916.4  0.00E+00
  917.7  0.00E+00
  919.2  0.00E+00
  919.3  0.00E+00
  920.0  0.00E+00
  921.3  0.00E+00
  922.0  0.00E+00
  922.8  0.00E+00
  923.0  0.00E+00
  925.0  0.00E+00
  926.1  0.00E+00
  927.0  0.00E+00
  927.7  0.00E+00
  928.2  0.00E+00
  928.7  0.00E+00
  929.0  0.00E+00
  931.5  0.00E+00
  931.9  0.00E+00
  932.5  0.00E+00
  934.3  0.00E+00
  934.5  0.00E+00
  935.0  0.00E+00
  935.3  0.00E+00
  937.0  0.00E+00
  937.9  0.00E+00
  938.5  0.00E+00
  938.8  0.00E+00
  939.9  0.00E+00
  940.5  0.00E+00
  942.5  0.00E+00
  945.5  0.00E+00
  946.2  0.00E+00
  946.7  0.00E+00
  947.5  0.00E+00
  948.0  0.00E+00
  949.2  0.00E+00
  950.0  0.00E+00
  950.2  0.00E+00
  951.2  0.00E+00
  952.0  0.00E+00
  953.0  0.00E+00
  954.0  0.00E+00
  954.5  0.00E+00
  955.1  0.00E+00
  955.5  0.00E+00
  957.0  0.00E+00
  958.0  0.00E+00
  958.2  0.00E+00
  958.8  0.00E+00
  959.3  0.00E+00
  960.0  0.00E+00
  960.3  0.00E+00
  963.5  0.00E+00
  965.0  0.00E+00
  965.5  0.00E+00
  965.8  0.00E+00
  970.0  0.00E+00
  972.5  0.00E+00
  976.0  0.00E+00
  977.0  0.00E+00
  978.0  0.00E+00
  979.1  0.00E+00
  985.7  0.00E+00
  987.5  0.00E+00
  989.8  0.00E+00
  991.5  0.00E+00
  991.9  0.00E+00
  997.0  0.00E+00
 1000.0  0.00E+00
 1008.0  0.00E+00
 1025.7  0.00E+00
 1031.9  0.00E+00
 1037.6  0.00E+00
 1038.0  0.00E+00
 1270.4  0.00E+00